Folder: Pavement-Rehab-Analysis

Note: clustering_report.txt
Gaussian Mixture Model Clustering Analysis Summary Report
===================================================

1. GMM Clustering Results
----------------------
Optimal number of clusters: 12
Final Silhouette Score: 0.446
Final Davies-Bouldin Score: 0.531
Final Calinski-Harabasz Score: 383.377
BIC Score: 516.9
AIC Score: 205.8

File: clustering_results.csv
Chainage(km),IRI Average (m/km),Rut Lane (mm),Alligator Cracks Extent,Ravelling Extent,Deflection in  microns D(1) at (0),Deflection in  microns D(2) at (200),Deflection in  microns D(3) at (300),Deflection in  microns D(4) at 450),Deflection in  microns D(5) at (600),Deflection in  microns D(6) at (900),Deflection in  microns D(7) at (1200),Deflection in  microns D(8) at (1500),Deflection in  microns D(9) at (1800),Load kPa,Load kN,Temp,Cluster,Optimized_Cluster,Section_Start,Section_End
170.88,4.79,8.13,0,0,362.93,294.236,254.286,198.857,156.964,100.79,70.7023,55.8119,47.5336,572.981,40,35,2,2,True,False
171.0,4.56,6.51,0,0,461.462,379.93,331.211,263.599,206.925,130.365,87.6112,66.7545,56.8068,604.0,40,35,2,2,False,False
171.3,3.52,6.02,0,0,538.609,440.336,384.875,304.116,240.871,154.274,103.678,80.326,62.812,582.0,40,35,2,2,False,False
171.61,4.76,4.51,0,8,468.785,364.603,307.503,229.366,175.272,106.151,71.0894,54.0596,46.0456,588.0,40,35,2,2,False,False
171.91,4.91,4.59,0,7,379.92,297.168,248.315,186.833,148.871,98.9211,71.9481,58.961,49.97,569.0,40,35,2,2,False,False
172.21,3.58,6.6,0,0,313.273,252.87,220.287,173.33,136.914,85.1653,58.3325,49.985,44.9875,591.0,40,35,2,2,False,False
172.51,4.59,4.59,0,2,421.699,337.762,285.801,213.855,159.895,102.423,72.6316,57.7358,55.7498,603.0,40,35,2,2,False,True
172.81,4.3,4.97,18,2,536.704,429.8,360.51,254.595,186.295,118.369,82.2334,64.1656,57.1393,585.0,40,35,0,0,True,True
173.11,4.94,5.29,63,3,426.361,346.608,289.642,200.398,156.054,100.625,73.414,60.3124,51.2421,596.0,40,35,4,4,True,True
173.41,4.0,6.75,70,3,421.633,338.04,280.389,194.874,140.106,87.8788,64.6061,51.0303,45.974,589.0,40,35,9,9,True,False
173.71,4.01,9.55,75,0,352.23,277.621,226.888,170.805,129.856,78.846,60.6043,48.4431,43.7556,571.0,40,35,9,9,False,True
174.01,4.34,10.85,15,0,636.118,514.876,417.484,312.291,235.731,134.314,85.5941,63.7199,61.7313,595.0,40,35,0,0,True,True
174.31,4.99,5.98,10,0,657.365,542.094,456.379,319.433,230.032,128.489,83.6909,64.776,56.8118,597.0,40,35,6,6,True,True
174.61,5.77,6.14,15,4,695.292,584.343,459.769,279.874,195.234,108.602,73.7503,57.818,48.8561,590.0,40,35,0,0,True,False
174.91,5.33,7.82,18,3,362.998,294.783,249.305,192.266,150.203,92.1157,63.0721,49.0511,41.2427,585.0,40,35,0,0,False,True
175.21,6.8,15.45,55,3,434.308,329.968,271.46,195.4,143.718,85.6851,61.4779,50.0965,45.6173,595.0,40,35,8,8,True,True
175.51,8.0,15.81,25,3,490.524,397.617,338.676,256.758,194.82,118.948,80.967,60.977,49.965,590.0,40,35,7,7,True,True
175.81,6.18,13.51,80,0,536.357,461.18,399.672,302.039,233.697,136.064,86.2717,65.7689,53.0766,588.0,40,35,11,11,True,True
176.11,5.45,24.66,95,0,517.658,418.093,340.447,237.056,186.043,110.024,71.014,52.0093,44.0073,586.0,40,35,10,10,True,True
176.41,4.93,5.89,15,2,561.697,445.271,371.365,276.2,200.27,111.178,73.7193,55.4961,51.2595,594.0,40,35,0,0,True,True
176.71,3.12,6.6,10,2,593.396,480.252,394.42,266.646,180.813,110.451,71.6741,53.0476,47.0401,580.0,40,35,6,6,True,True
177.01,10.51,13.32,70,0,513.663,404.793,328.001,229.824,179.576,103.309,68.1862,52.2915,49.1194,582.0,40,35,1,1,True,True
177.31,5.42,17.11,90,0,453.996,381.342,322.815,215.681,158.874,90.6974,65.7908,52.8394,41.8804,584.0,40,35,3,3,True,False
177.61,6.06,16.76,90,3,533.904,426.335,340.677,223.147,141.474,77.8825,58.6322,47.4873,41.4083,601.0,40,35,3,3,False,True
177.91,6.89,17.33,75,4,377.839,288.392,237.136,172.497,134.845,81.4825,59.333,48.2582,46.2447,591.0,40,35,1,1,True,True
178.21,3.32,10.17,70,4,401.784,326.633,274.529,203.387,156.293,95.1703,70.1202,56.0922,46.0721,608.0,40,35,9,9,True,True
178.51,5.2,5.65,0,0,351.601,276.073,225.72,153.212,104.874,47.0281,23.3711,12.5283,7.19033,592.0,40,35,2,2,True,True
178.81,4.6,5.79,15,5,589.543,470.632,383.697,254.794,168.858,66.9348,30.9618,16.68,13.8585,602.0,40,35,0,0,True,True
179.11,6.72,13.09,83,3,635.164,543.141,454.119,294.079,196.054,96.029,58.0195,38.0145,25.283,581.0,40,35,11,11,True,False
179.41,4.79,15.16,85,5,480.751,378.881,316.81,233.371,171.3,88.8781,52.2462,33.9303,20.7021,591.0,40,35,11,11,False,True
179.71,4.19,6.67,10,0,406.46,310.506,255.26,177.722,125.384,62.3843,36.2152,23.6152,16.8306,584.0,40,35,6,6,True,False
180.01,5.53,6.57,8,4,614.0,487.0,382.0,246.0,157.326,80.7752,45.8915,29.4186,17.7907,584.0,40,35,6,6,False,False
180.31,4.47,7.74,8,0,633.963,505.686,411.005,275.602,183.976,74.0239,28.2107,7.84933,-2.07585,598.0,40,35,6,6,False,False
180.61,3.68,6.77,6,3,438.348,337.644,275.206,187.593,125.156,48.6203,16.3948,1.28902,-7.77442,589.0,40,35,6,6,False,False
180.91,7.86,5.61,8,3,507.189,385.703,310.402,207.992,139.719,57.3896,19.2369,0.160643,-6.86747,607.0,40,35,6,6,False,True
181.21,4.62,13.49,25,3,438.7,334.292,265.344,171.77,108.732,43.7232,15.1588,0.384142,-9.46565,584.0,40,35,7,7,True,True
181.51,4.37,7.54,0,4,626.008,492.609,399.723,266.324,173.439,68.6957,27.1937,7.43083,-3.43874,583.0,40,35,2,2,True,False
181.81,4.79,4.37,0,2,446.703,335.314,269.082,182.78,124.576,51.3196,16.1967,0.140492,-8.32253,612.0,40,35,2,2,False,False
182.11,4.68,6.26,0,2,675.154,553.53,460.122,338.497,243.143,117.626,58.2729,29.0829,13.515,582.0,40,35,2,2,False,True
182.41,3.77,6.28,8,0,533.823,411.208,333.913,230.15,157.19,67.4686,29.0165,10.2835,-0.561992,601.0,40,35,6,6,True,True
182.71,17.65,13.8,15,3,315.956,252.359,211.542,150.793,104.281,43.5311,14.1054,2.04351,-3.82303,596.0,40,35,5,5,True,True
183.015,2.41,2.62,0,0,378.096,288.516,231.982,157.562,107.522,44.4092,15.7683,1.66546,-8.18367,577.3125,40,35,2,2,True,True